Frequency (Hz)	Level (dB)
15.625000	-69.057076
31.250000	-63.830986
46.875000	-59.124966
62.500000	-57.106781
78.125000	-57.672211
93.750000	-58.651047
109.375000	-59.794357
125.000000	-60.898823
140.625000	-61.906818
156.250000	-61.779224
171.875000	-62.274998
187.500000	-62.947884
203.125000	-63.158314
218.750000	-63.511650
234.375000	-64.024391
250.000000	-63.671440
265.625000	-63.311485
281.250000	-62.902836
296.875000	-62.934914
312.500000	-62.794292
328.125000	-62.636333
343.750000	-62.321011
359.375000	-61.681965
375.000000	-61.359596
390.625000	-61.100384
406.250000	-60.360847
421.875000	-59.709999
437.500000	-59.101418
453.125000	-58.137062
468.750000	-57.235947
484.375000	-56.413612
500.000000	-55.228870
515.625000	-53.891972
531.250000	-52.134155
546.875000	-49.966850
562.500000	-48.217453
578.125000	-46.472755
593.750000	-45.474422
609.375000	-46.239601
625.000000	-47.262856
640.625000	-48.285118
656.250000	-49.654778
671.875000	-51.124722
687.500000	-52.077522
703.125000	-53.152256
718.750000	-53.583977
734.375000	-54.463177
750.000000	-55.134586
765.625000	-55.278866
781.250000	-55.637642
796.875000	-55.707424
812.500000	-55.955238
828.125000	-55.942692
843.750000	-56.194031
859.375000	-56.036388
875.000000	-55.859177
890.625000	-55.767899
906.250000	-55.476944
921.875000	-55.247871
937.500000	-54.596329
953.125000	-54.294464
968.750000	-54.084030
984.375000	-53.383793
1000.000000	-52.393044
1015.625000	-51.949356
1031.250000	-51.147709
1046.875000	-50.013046
1062.500000	-48.830036
1078.125000	-47.521698
1093.750000	-46.055851
1109.375000	-44.003723
1125.000000	-41.634026
1140.625000	-39.529163
1156.250000	-37.873711
1171.875000	-37.543369
1187.500000	-38.261440
1203.125000	-39.769493
1218.750000	-41.452679
1234.375000	-42.911160
1250.000000	-43.830528
1265.625000	-45.215694
1281.250000	-46.118294
1296.875000	-46.850025
1312.500000	-47.388611
1328.125000	-48.127010
1343.750000	-48.351440
1359.375000	-48.513474
1375.000000	-49.130074
1390.625000	-49.107731
1406.250000	-49.110336
1421.875000	-49.095089
1437.500000	-49.114788
1453.125000	-49.105007
1468.750000	-48.521992
1484.375000	-48.475506
1500.000000	-48.319630
1515.625000	-47.832523
1531.250000	-47.333767
1546.875000	-46.894032
1562.500000	-46.286469
1578.125000	-45.633533
1593.750000	-44.746155
1609.375000	-44.068211
1625.000000	-43.057251
1640.625000	-41.931770
1656.250000	-40.591820
1671.875000	-39.508156
1687.500000	-37.993591
1703.125000	-36.077633
1718.750000	-34.135048
1734.375000	-32.275692
1750.000000	-31.467237
1765.625000	-32.140110
1781.250000	-33.429417
1796.875000	-34.823704
1812.500000	-36.563198
1828.125000	-37.907417
1843.750000	-39.325199
1859.375000	-40.062702
1875.000000	-41.039658
1890.625000	-41.581284
1906.250000	-41.970005
1921.875000	-42.491360
1937.500000	-43.064819
1953.125000	-43.377804
1968.750000	-43.359718
1984.375000	-43.867664
2000.000000	-44.066166
2015.625000	-44.133415
2031.250000	-44.093418
2046.875000	-43.934917
2062.500000	-43.697517
2078.125000	-43.641026
2093.750000	-43.529938
2109.375000	-43.306141
2125.000000	-42.810867
2140.625000	-42.766357
2156.250000	-42.495090
2171.875000	-41.848656
2187.500000	-41.075565
2203.125000	-40.050369
2218.750000	-39.027992
2234.375000	-38.225231
2250.000000	-37.070797
2265.625000	-35.831055
2281.250000	-34.555599
2296.875000	-32.525230
2312.500000	-30.703180
2328.125000	-29.178137
2343.750000	-29.056496
2359.375000	-30.023550
2375.000000	-31.640705
2390.625000	-33.387516
2406.250000	-35.017429
2421.875000	-36.491020
2437.500000	-38.084026
2453.125000	-39.046398
2468.750000	-40.032509
2484.375000	-40.788891
2500.000000	-41.442245
2515.625000	-42.098877
2531.250000	-42.674484
2546.875000	-42.887463
2562.500000	-43.215363
2578.125000	-43.426903
2593.750000	-43.613312
2609.375000	-43.710873
2625.000000	-43.576771
2640.625000	-43.612408
2656.250000	-43.600376
2671.875000	-43.829895
2687.500000	-43.779800
2703.125000	-43.420509
2718.750000	-43.009056
2734.375000	-42.613499
2750.000000	-41.936226
2765.625000	-41.184372
2781.250000	-41.208611
2796.875000	-40.182781
2812.500000	-38.942722
2828.125000	-37.401066
2843.750000	-35.920650
2859.375000	-34.183678
2875.000000	-31.842966
2890.625000	-29.523926
2906.250000	-27.555870
2921.875000	-27.327477
2937.500000	-28.519407
2953.125000	-30.686832
2968.750000	-33.197826
2984.375000	-35.412842
3000.000000	-36.955757
3015.625000	-38.380627
3031.250000	-39.722256
3046.875000	-40.502209
3062.500000	-41.143120
3078.125000	-41.608021
3093.750000	-42.007011
3109.375000	-42.144138
3125.000000	-42.612099
3140.625000	-43.085754
3156.250000	-43.296299
3171.875000	-43.242615
3187.500000	-43.103905
3203.125000	-43.497791
3218.750000	-43.508991
3234.375000	-43.368042
3250.000000	-42.954498
3265.625000	-42.688675
3281.250000	-42.324936
3296.875000	-42.181206
3312.500000	-41.986584
3328.125000	-41.396160
3343.750000	-40.382435
3359.375000	-39.543907
3375.000000	-38.425777
3390.625000	-37.514717
3406.250000	-36.062893
3421.875000	-34.618824
3437.500000	-32.857430
3453.125000	-30.721085
3468.750000	-28.157745
3484.375000	-26.823679
3500.000000	-27.277685
3515.625000	-28.924618
3531.250000	-30.814304
3546.875000	-32.638813
3562.500000	-34.417309
3578.125000	-35.819107
3593.750000	-36.956192
3609.375000	-37.776699
3625.000000	-38.671413
3640.625000	-39.245747
3656.250000	-40.162880
3671.875000	-40.591900
3687.500000	-40.874699
3703.125000	-41.056107
3718.750000	-41.415638
3734.375000	-41.688660
3750.000000	-42.031273
3765.625000	-42.111816
3781.250000	-41.806499
3796.875000	-41.715759
3812.500000	-41.903500
3828.125000	-41.917847
3843.750000	-41.518791
3859.375000	-41.317120
3875.000000	-41.009937
3890.625000	-40.492878
3906.250000	-40.096878
3921.875000	-39.522636
3937.500000	-38.852898
3953.125000	-38.426678
3968.750000	-37.735809
3984.375000	-36.566322
4000.000000	-35.474159
4015.625000	-34.363358
4031.250000	-32.840443
4046.875000	-31.786634
4062.500000	-30.522989
4078.125000	-30.124386
4093.750000	-30.978729
4109.375000	-32.277679
4125.000000	-33.809174
4140.625000	-35.125717
4156.250000	-36.455658
4171.875000	-37.695297
4187.500000	-39.029804
4203.125000	-40.069626
4218.750000	-41.115353
4234.375000	-41.807018
4250.000000	-42.352306
4265.625000	-42.836689
4281.250000	-43.647602
4296.875000	-44.198841
4312.500000	-44.673229
4328.125000	-44.832577
4343.750000	-45.449272
4359.375000	-45.598961
4375.000000	-45.741894
4390.625000	-45.931965
4406.250000	-46.099735
4421.875000	-45.858555
4437.500000	-45.978359
4453.125000	-46.163620
4468.750000	-45.819904
4484.375000	-45.563042
4500.000000	-45.068672
4515.625000	-44.842091
4531.250000	-44.187790
4546.875000	-43.403980
4562.500000	-42.702698
4578.125000	-41.979385
4593.750000	-40.618279
4609.375000	-39.447021
4625.000000	-37.741352
4640.625000	-36.049435
4656.250000	-34.840958
4671.875000	-34.998051
4687.500000	-36.035336
4703.125000	-37.638218
4718.750000	-39.489761
4734.375000	-41.472183
4750.000000	-42.924728
4765.625000	-44.241520
4781.250000	-45.430454
4796.875000	-46.443668
4812.500000	-47.038231
4828.125000	-47.997097
4843.750000	-48.829388
4859.375000	-49.213017
4875.000000	-49.673763
4890.625000	-50.161751
4906.250000	-50.616455
4921.875000	-50.737057
4937.500000	-51.118698
4953.125000	-51.012783
4968.750000	-51.297726
4984.375000	-51.318943
5000.000000	-51.434715
5015.625000	-51.413692
5031.250000	-51.088844
5046.875000	-50.547604
5062.500000	-50.446018
5078.125000	-50.235744
5093.750000	-49.707748
5109.375000	-49.247162
5125.000000	-48.592651
5140.625000	-47.562428
5156.250000	-46.237293
5171.875000	-45.148689
5187.500000	-43.738064
5203.125000	-42.106907
5218.750000	-40.184368
5234.375000	-38.967613
5250.000000	-39.244038
5265.625000	-40.481457
5281.250000	-42.066628
5296.875000	-43.748203
5312.500000	-45.632782
5328.125000	-47.252846
5343.750000	-48.791939
5359.375000	-49.732475
5375.000000	-50.610451
5390.625000	-51.595768
5406.250000	-52.443111
5421.875000	-52.830441
5437.500000	-53.295704
5453.125000	-53.922245
5468.750000	-53.961777
5484.375000	-54.402916
5500.000000	-54.639225
5515.625000	-54.675037
5531.250000	-54.782104
5546.875000	-54.896309
5562.500000	-54.981163
5578.125000	-55.076378
5593.750000	-54.834644
5609.375000	-54.602245
5625.000000	-54.306709
5640.625000	-53.855995
5656.250000	-53.317173
5671.875000	-53.122166
5687.500000	-52.252747
5703.125000	-51.451271
5718.750000	-50.544277
5734.375000	-49.524235
5750.000000	-48.109287
5765.625000	-47.330654
5781.250000	-45.495590
5796.875000	-43.991699
5812.500000	-43.317158
5828.125000	-43.112911
5843.750000	-44.000187
5859.375000	-45.872147
5875.000000	-47.690937
5890.625000	-49.152054
5906.250000	-50.630184
5921.875000	-51.600857
5937.500000	-52.342884
5953.125000	-53.227730
5968.750000	-54.213337
5984.375000	-55.120865
6000.000000	-55.852325
6015.625000	-56.329426
6031.250000	-56.620499
6046.875000	-56.780563
6062.500000	-57.012608
6078.125000	-57.353127
6093.750000	-57.723961
6109.375000	-57.907875
6125.000000	-57.589676
6140.625000	-57.684181
6156.250000	-57.902557
6171.875000	-57.634384
6187.500000	-57.225704
6203.125000	-57.251228
6218.750000	-57.194191
6234.375000	-56.724445
6250.000000	-56.106689
6265.625000	-55.297619
6281.250000	-54.917610
6296.875000	-54.081993
6312.500000	-53.569771
6328.125000	-52.576756
6343.750000	-51.104172
6359.375000	-50.286392
6375.000000	-49.179741
6390.625000	-48.313362
6406.250000	-48.364426
6421.875000	-49.195839
6437.500000	-50.492081
6453.125000	-52.143925
6468.750000	-53.408169
6484.375000	-54.794971
6500.000000	-56.031784
6515.625000	-57.208199
6531.250000	-58.111191
6546.875000	-59.226566
6562.500000	-60.151657
6578.125000	-60.789494
6593.750000	-61.273846
6609.375000	-61.847805
6625.000000	-62.301579
6640.625000	-62.867367
6656.250000	-63.334122
6671.875000	-63.794964
6687.500000	-63.743061
6703.125000	-64.075874
6718.750000	-64.415710
6734.375000	-64.591988
6750.000000	-64.635262
6765.625000	-64.711174
6781.250000	-64.740639
6796.875000	-64.437660
6812.500000	-64.481804
6828.125000	-64.289886
6843.750000	-64.162300
6859.375000	-63.584667
6875.000000	-63.009968
6890.625000	-62.492474
6906.250000	-61.722988
6921.875000	-61.286213
6937.500000	-60.631889
6953.125000	-59.997684
6968.750000	-59.802155
6984.375000	-59.905247
7000.000000	-60.798561
7015.625000	-62.119663
7031.250000	-63.779076
7046.875000	-65.460609
7062.500000	-66.893387
7078.125000	-68.443329
7093.750000	-69.453087
7109.375000	-70.866096
7125.000000	-72.147797
7140.625000	-73.315895
7156.250000	-74.411385
7171.875000	-75.169846
7187.500000	-75.909332
7203.125000	-77.011795
7218.750000	-77.931450
7234.375000	-78.539520
7250.000000	-79.128021
7265.625000	-79.692375
7281.250000	-80.699684
7296.875000	-81.253860
7312.500000	-81.455894
7328.125000	-81.992195
7343.750000	-82.290848
7359.375000	-82.900124
7375.000000	-83.326797
7390.625000	-83.868431
7406.250000	-84.023575
7421.875000	-84.202179
7437.500000	-84.384224
7453.125000	-84.437325
7468.750000	-84.591309
7484.375000	-84.466576
7500.000000	-84.595901
7515.625000	-84.802750
7531.250000	-85.237465
7546.875000	-85.925064
7562.500000	-87.259125
7578.125000	-88.767311
7593.750000	-90.805641
7609.375000	-92.847084
7625.000000	-95.099731
7640.625000	-97.674522
7656.250000	-99.837036
7671.875000	-101.862312
7687.500000	-103.849319
7703.125000	-106.028511
7718.750000	-108.343063
7734.375000	-111.214439
7750.000000	-114.526344
7765.625000	-117.498428
7781.250000	-120.813309
7796.875000	-124.682053
7812.500000	-128.393600
7828.125000	-132.612473
7843.750000	-137.612030
7859.375000	-143.387192
7875.000000	-149.416489
7890.625000	-155.214401
7906.250000	-160.297852
7921.875000	-163.195023
7937.500000	-164.068390
7953.125000	-164.235046
7968.750000	-164.333389
7984.375000	-164.524506
